Folder: battery_test_project/csv/EIS

Note: README.md
# battery_test_project
Battery_test_project is a project that use lab instrument to test the LiPo battery.
* OS
    * Windows 11
* API
    * NI-VISA
* Lab instrument
    * TEXIO PDS20-36A
    * Rigol DL3021
    * Keysight DAQ970A
    * DELTA DVP-12SE
## Required Libraries
* pyVISA
* time
* serial
* pandas
* matplotlib

File: EIS_charge_cycle_1.csv
Frequency (Hz),Zreal,Zimag
0.001,2023.57,-5.73839
0.008,2021.98,-50.0943
0.06,1954.29,-351.728
0.464,716.988,-944.125
3.594,27.2314,-196.334
27.826,1.86126,-27.1787
215.44,0.505398,-3.75702
1668.1,0.32706,-0.521079
12915.0,0.299249,-0.0704618
100000.0,0.285636,0.0328031

File: EIS_discharge_cycle_1.csv
Frequency (Hz),Zreal,Zimag
0.001,9.9e+37,9.9e+37
0.008,9.9e+37,9.9e+37
0.06,9.9e+37,9.9e+37
0.464,9.9e+37,9.9e+37
3.594,-31.8768,194.461
27.826,-1.89101,27.2355
215.44,-0.506684,3.75018
1668.1,-0.333661,0.518572
12915.0,-0.30538,0.0664405
100000.0,-0.304688,-0.0257829

File: EIS_discharge_cycle_2.csv
Frequency (Hz),Zreal,Zimag
0.001,9.9e+37,9.9e+37
0.008,9.9e+37,9.9e+37
0.06,9.9e+37,9.9e+37
0.464,9.9e+37,9.9e+37
3.594,-38.1806,199.019
27.826,-1.93195,27.0621
215.44,-0.522338,3.75674
1668.1,-0.339293,0.519181
12915.0,-0.310935,0.0695432
100000.0,-0.309081,-0.0164446